Shunt Cal Serial number:;XYZ1234
Calibration Date:;2022-04-23
Resistor (Ohm);0.0031
Linearsation #:;20
0.99955;3.069031064
2.00077;3.0701030
3.00021;3.0700184
4.00114;3.0705999
5.00124;3.0711843
6.00244;3.0708912
7.00176;3.0714506
8.002;3.0717408
9.00261;3.0722713
10.00324;3.0728044
11.00185;3.0734676
12.00206;3.0742772
13.00206;3.0748051
14.00157;3.0759736
15.00015;3.0769966
15.99909;3.0780638
16.99877;3.0787892
17.99782;3.0800953
18.99611;3.0813551
19.99533;3.0834610
